* Measurement data measured by REW V5.20
* Source: USB-C to 3.5mm Headphone Jack Adapter, USB-C to 3.5mm Headphone Jack Adapter, 0, volume: 0.663. Timing signal peak level -9.7 dBFS, measurement signal peak level -9.7 dBFS
* Format: 256k Log Swept Sine, 1 sweep at -12.0 dBFS using an acoustic timing reference
* Dated: Apr 1, 2021 5:24:02 PM
* REW Settings:
*  C-weighting compensation: Off
*  Target level: 75.0 dB
* Note: Delay -0.2105 ms (-72 mm, -2.84 in) using estimated IR delay relative to Acoustic reference on USB-C to 3.5mm Headphone Jack Adapter L with no timing offset
* Measurement: Moondrop Aria
* Smoothing: 1/12 octave
* Frequency Step: 1/48 octave
* Start Frequency: 20.300 Hz
*
* Freq(Hz)	SPL(dB)	Phase(degrees)
20.299999	107.052803	-149.5031
20.600000	107.059784	-149.7206
20.900000	107.079277	-150.2366
21.200001	107.102837	-150.8036
21.400000	107.119705	-151.1814
21.799999	107.152763	-151.9324
22.000000	107.167145	-152.3084
22.400000	107.188431	-153.0635
22.700001	107.196457	-153.6248
23.000000	107.198509	-154.1740
23.299999	107.196556	-154.7086
23.600000	107.192879	-155.2322
24.000000	107.188255	-155.9242
24.299999	107.186035	-156.4433
24.700001	107.185341	-157.1318
25.000000	107.187057	-157.6377
25.400000	107.193542	-158.2898
25.799999	107.205612	-158.9167
26.200001	107.222092	-159.5287
26.500000	107.235329	-159.9829
26.900000	107.251015	-160.5798
27.200001	107.259819	-161.0155
27.600000	107.267227	-161.5728
28.000000	107.270607	-162.1045
28.500000	107.270744	-162.7523
29.000000	107.266113	-163.4061
29.500000	107.255913	-164.0652
30.000000	107.242523	-164.7028
30.400000	107.232857	-165.1835
30.700001	107.227638	-165.5269
31.100000	107.223602	-165.9683
31.500000	107.221283	-166.3990
32.000000	107.217049	-166.9277
32.500000	107.208786	-167.4455
33.000000	107.197075	-167.9562
33.500000	107.184097	-168.4693
34.000000	107.171547	-168.9881
34.500000	107.160110	-169.5016
35.000000	107.150230	-169.9910
35.500000	107.141975	-170.4482
36.000000	107.134300	-170.8829
36.500000	107.125084	-171.3133
37.000000	107.112434	-171.7510
37.500000	107.096161	-172.1928
38.200001	107.071159	-172.7889
38.700001	107.055496	-173.1797
39.500000	107.037254	-173.7482
40.000000	107.027458	-174.0934
40.599998	107.012184	-174.5254
41.200001	106.990845	-174.9803
41.799999	106.965645	-175.4421
42.500000	106.936920	-175.9619
43.099998	106.914597	-176.3770
43.700001	106.892296	-176.7650
44.400002	106.862572	-177.2047
45.000000	106.832993	-177.5952
45.500000	106.807022	-177.9388
46.200001	106.773682	-178.4383
46.799999	106.752754	-178.8647
47.500000	106.740036	-179.3432
48.200001	106.736008	-179.8109
48.700001	106.732330	179.8468
49.400002	106.714668	179.3572
50.000000	106.682793	178.9681
50.799999	106.625336	178.5712
51.500000	106.580086	178.3331
52.200001	106.549713	178.1135
53.000000	106.525665	177.8008
53.799999	106.498718	177.4264
54.500000	106.469200	177.0952
55.200001	106.436623	176.7932
56.000000	106.395523	176.4963
57.000000	106.330360	176.1634
58.000000	106.244507	175.7148
59.000000	106.144547	175.1035
60.000000	106.074577	174.6485
60.799999	106.071167	174.4924
61.500000	106.090538	174.4047
62.200001	106.102737	174.2971
63.000000	106.093964	174.1372
64.000000	106.061935	173.8788
65.000000	106.024231	173.5777
66.000000	105.982933	173.2829
67.000000	105.936172	173.0032
68.000000	105.888893	172.7303
69.000000	105.844261	172.4572
70.000000	105.796837	172.1818
71.000000	105.744034	171.9113
72.000000	105.692924	171.6532
73.000000	105.649574	171.4046
74.000000	105.610367	171.1640
75.000000	105.570023	170.9384
76.199997	105.520996	170.6862
77.500000	105.470001	170.4210
78.800003	105.416702	170.1548
80.000000	105.362808	169.9149
81.199997	105.307388	169.6982
82.500000	105.248840	169.4913
83.800003	105.192467	169.2829
85.000000	105.141556	169.0876
86.199997	105.091522	168.9193
87.500000	105.037880	168.7757
88.500000	104.996071	168.6811
90.000000	104.931618	168.5423
91.199997	104.878952	168.4178
92.500000	104.821304	168.2673
93.800003	104.764839	168.1221
95.000000	104.715454	168.0101
96.199997	104.667358	167.9152
97.500000	104.614044	167.8136
98.800003	104.558868	167.7084
100.000000	104.506386	167.6236
101.500000	104.439194	167.5488
103.000000	104.372520	167.4932
104.400002	104.312653	167.4456
106.000000	104.247383	167.3983
107.500000	104.188469	167.3627
109.000000	104.130661	167.3353
110.599998	104.069328	167.3130
112.000000	104.015404	167.2979
113.800003	103.947182	167.2717
115.000000	103.905457	167.2355
117.199997	103.844315	167.0878
118.000000	103.825920	167.0166
120.599998	103.742737	166.9950
122.000000	103.674828	167.1879
124.099998	103.574097	167.5280
125.000000	103.537895	167.6456
126.500000	103.487167	167.7980
128.000000	103.445084	167.9066
131.500000	103.357941	168.0356
132.000000	103.345169	168.0427
134.000000	103.291275	168.0543
136.000000	103.233269	168.0648
138.000000	103.172997	168.1038
140.000000	103.111549	168.1715
143.000000	103.018234	168.2881
145.000000	102.954689	168.3723
147.500000	102.874542	168.5001
150.000000	102.797249	168.6605
152.500000	102.721794	168.8464
155.000000	102.647308	169.0430
157.500000	102.575401	169.2389
160.000000	102.507095	169.4348
162.500000	102.442513	169.6436
165.000000	102.379379	169.8677
167.500000	102.315781	170.0966
170.000000	102.252701	170.3155
172.500000	102.191582	170.5159
175.000000	102.131432	170.7034
177.500000	102.070404	170.8926
180.000000	102.007240	171.1078
182.500000	101.943779	171.3706
185.000000	101.883728	171.6596
187.500000	101.827179	171.9386
190.000000	101.772285	172.2078
192.500000	101.717468	172.4845
195.000000	101.662155	172.7730
197.500000	101.606911	173.0658
200.000000	101.552025	173.3593
203.000000	101.487411	173.7132
206.000000	101.425415	174.0658
209.000000	101.366081	174.4173
212.000000	101.308548	174.7715
214.000000	101.270676	175.0094
218.000000	101.196091	175.4890
220.000000	101.159798	175.7332
224.000000	101.088966	176.2328
227.000000	101.036438	176.6190
230.000000	100.983452	177.0261
233.000000	100.928726	177.4673
236.000000	100.872597	177.9363
240.000000	100.803383	178.5089
243.000000	100.760887	178.8394
247.000000	100.709015	179.2437
250.000000	100.667076	179.5823
254.000000	100.607086	-179.9273
258.000000	100.547478	-179.4276
262.000000	100.491646	-178.9290
265.000000	100.452377	-178.5421
269.000000	100.401520	-177.9938
272.000000	100.362251	-177.5636
276.000000	100.307961	-176.9929
280.000000	100.255028	-176.4526
285.000000	100.192924	-175.8152
290.000000	100.130203	-175.1850
295.000000	100.064339	-174.5479
300.000000	100.001961	-173.8867
304.000000	99.960266	-173.3183
307.000000	99.932220	-172.8808
311.000000	99.895279	-172.3039
315.000000	99.857292	-171.7407
320.000000	99.808441	-171.0476
325.000000	99.759254	-170.3553
330.000000	99.711922	-169.6596
335.000000	99.667099	-168.9601
340.000000	99.624413	-168.2549
345.000000	99.584465	-167.5466
350.000000	99.546921	-166.8414
355.000000	99.510612	-166.1409
360.000000	99.474869	-165.4521
365.000000	99.439400	-164.7836
370.000000	99.404449	-164.1295
375.000000	99.370262	-163.4791
382.000000	99.323151	-162.5610
387.000000	99.289543	-161.8973
395.000000	99.235947	-160.8296
400.000000	99.202995	-160.1617
406.000000	99.164055	-159.3596
412.000000	99.125542	-158.5550
418.000000	99.088745	-157.7487
425.000000	99.050453	-156.8082
431.000000	99.019951	-156.0029
437.000000	98.989494	-155.1960
444.000000	98.954147	-154.2512
450.000000	98.925018	-153.4415
455.000000	98.901917	-152.7680
462.000000	98.870926	-151.8225
468.000000	98.845329	-151.0060
475.000000	98.816612	-150.0510
482.000000	98.788513	-149.1091
487.000000	98.768448	-148.4477
494.000000	98.740974	-147.5267
500.000000	98.718521	-146.7357
508.000000	98.690315	-145.6777
515.000000	98.666832	-144.7495
522.000000	98.643555	-143.8235
530.000000	98.616592	-142.7712
538.000000	98.591019	-141.7171
545.000000	98.571869	-140.7848
552.000000	98.555046	-139.8471
560.000000	98.536407	-138.7777
570.000000	98.512650	-137.4471
580.000000	98.489372	-136.1186
590.000000	98.468269	-134.7871
600.000000	98.449524	-133.4594
608.000000	98.435463	-132.4051
615.000000	98.423874	-131.4867
622.000000	98.413170	-130.5695
630.000000	98.402222	-129.5201
640.000000	98.390732	-128.2063
650.000000	98.381714	-126.8949
660.000000	98.372803	-125.5935
670.000000	98.361061	-124.3087
680.000000	98.348068	-123.0427
690.000000	98.334717	-121.7994
700.000000	98.317368	-120.5822
710.000000	98.289047	-119.3773
720.000000	98.243408	-118.1273
730.000000	98.181877	-116.7234
740.000000	98.121124	-115.0674
750.000000	98.088127	-113.1769
762.000000	98.110497	-110.8009
775.000000	98.206635	-108.4308
788.000000	98.332794	-106.5151
800.000000	98.428223	-105.0858
812.000000	98.489349	-103.7623
825.000000	98.530647	-102.2834
838.000000	98.562439	-100.7208
850.000000	98.591232	-99.2212
862.000000	98.623001	-97.6856
875.000000	98.661896	-95.9960
885.000000	98.694832	-94.6851
900.000000	98.750038	-92.7199
912.000000	98.800346	-91.1641
925.000000	98.860268	-89.4932
938.000000	98.924660	-87.8310
950.000000	98.987564	-86.3036
962.000000	99.053406	-84.7861
975.000000	99.128029	-83.1602
988.000000	99.206665	-81.5587
1000.000000	99.283096	-80.1035
1015.000000	99.382996	-78.3138
1030.000000	99.485931	-76.5541
1044.000000	99.584831	-74.9413
1060.000000	99.702011	-73.1390
1075.000000	99.814545	-71.4939
1090.000000	99.927994	-69.8965
1106.000000	100.050064	-68.2424
1120.000000	100.157921	-66.8319
1138.000000	100.296982	-65.0675
1150.000000	100.389153	-63.9239
1172.000000	100.556313	-61.8911
1180.000000	100.616402	-61.1699
1206.000000	100.806969	-58.8907
1220.000000	100.905823	-57.7040
1241.000000	101.050583	-55.9682
1250.000000	101.111374	-55.2367
1265.000000	101.210297	-54.0292
1280.000000	101.305908	-52.8344
1315.000000	101.519440	-50.0984
1320.000000	101.549004	-49.7133
1340.000000	101.664703	-48.1848
1360.000000	101.776093	-46.6712
1380.000000	101.883911	-45.1690
1400.000000	101.989204	-43.6743
1430.000000	102.142609	-41.4397
1450.000000	102.241920	-39.9628
1475.000000	102.363419	-38.1307
1500.000000	102.483681	-36.3029
1525.000000	102.604286	-34.4813
1550.000000	102.724945	-32.6719
1575.000000	102.844971	-30.8779
1600.000000	102.964653	-29.1081
1625.000000	103.083740	-27.3698
1650.000000	103.201073	-25.6660
1675.000000	103.316299	-23.9977
1700.000000	103.429016	-22.3622
1725.000000	103.538292	-20.7539
1750.000000	103.643326	-19.1672
1775.000000	103.744171	-17.5972
1800.000000	103.841545	-16.0410
1825.000000	103.936089	-14.4993
1850.000000	104.027855	-12.9752
1875.000000	104.116280	-11.4711
1900.000000	104.200638	-9.9861
1925.000000	104.280563	-8.5172
1950.000000	104.356140	-7.0598
1975.000000	104.427711	-5.6089
2000.000000	104.495644	-4.1610
2030.000000	104.572609	-2.4270
2060.000000	104.644783	-0.6990
2090.000000	104.712540	1.0218
2120.000000	104.776100	2.7368
2140.000000	104.816071	3.8777
2180.000000	104.889832	6.1540
2200.000000	104.923546	7.2900
2240.000000	104.984703	9.5612
2270.000000	105.025253	11.2663
2300.000000	105.061264	12.9753
2330.000000	105.092827	14.6904
2360.000000	105.120201	16.4135
2400.000000	105.150635	18.7238
2430.000000	105.169098	20.4671
2470.000000	105.188286	22.8099
2500.000000	105.198959	24.5836
2540.000000	105.208794	26.9728
2580.000000	105.214310	29.3900
2620.000000	105.216362	31.8350
2650.000000	105.216103	33.6866
2690.000000	105.213799	36.1782
2720.000000	105.210716	38.0631
2760.000000	105.205177	40.5967
2800.000000	105.198463	43.1524
2850.000000	105.188942	46.3742
2900.000000	105.178459	49.6213
2950.000000	105.167137	52.8917
3000.000000	105.154648	56.1842
3040.000000	105.143402	58.8332
3070.000000	105.134140	60.8300
3110.000000	105.120850	63.5101
3150.000000	105.107224	66.2147
3200.000000	105.091583	69.6310
3250.000000	105.079582	73.0800
3300.000000	105.072594	76.5508
3350.000000	105.071320	80.0327
3400.000000	105.076302	83.5150
3450.000000	105.087746	86.9831
3500.000000	105.104942	90.4184
3550.000000	105.125809	93.8058
3600.000000	105.147232	97.1396
3650.000000	105.166176	100.4256
3700.000000	105.180771	103.6786
3750.000000	105.191330	106.9161
3820.000000	105.203423	111.4385
3870.000000	105.212875	114.6510
3950.000000	105.229584	119.7059
4000.000000	105.237190	122.7882
4060.000000	105.237465	126.4111
4120.000000	105.223640	129.9776
4180.000000	105.194153	133.5211
4250.000000	105.141495	137.6623
4310.000000	105.083542	141.2365
4370.000000	105.016296	144.8381
4440.000000	104.927902	149.0704
4500.000000	104.843887	152.7189
4550.000000	104.767586	155.7724
4620.000000	104.650085	160.0740
4680.000000	104.538803	163.7997
4750.000000	104.397110	168.2139
4820.000000	104.245354	172.7237
4870.000000	104.133453	176.0098
4940.000000	103.976097	-179.3032
5000.000000	103.843536	-175.2198
5080.000000	103.672318	-169.7153
5150.000000	103.526596	-164.8742
5220.000000	103.381317	-160.0278
5300.000000	103.210564	-154.4764
5380.000000	103.031570	-148.8802
5450.000000	102.869812	-143.9215
5520.000000	102.706497	-138.9070
5600.000000	102.516998	-133.1284
5700.000000	102.265930	-125.7915
5800.000000	101.999741	-118.1960
5900.000000	101.737404	-110.2604
6000.000000	101.502884	-101.9945
6080.000000	101.350159	-95.1959
6150.000000	101.248672	-89.1743
6220.000000	101.177994	-83.1513
6300.000000	101.129196	-76.3331
6400.000000	101.100616	-67.9414
6500.000000	101.096245	-59.6432
6600.000000	101.118385	-51.3728
6700.000000	101.177475	-43.1172
6800.000000	101.283714	-34.9145
6900.000000	101.444496	-26.8326
7000.000000	101.664772	-18.9565
7100.000000	101.947105	-11.3890
7200.000000	102.289299	-4.2568
7300.000000	102.681427	2.2906
7400.000000	103.104027	8.0978
7500.000000	103.527802	13.0276
7620.000000	103.984718	17.6702
7750.000000	104.339783	21.1862
7880.000000	104.478531	23.4893
8000.000000	104.380463	25.0553
8120.000000	104.060249	26.6027
8250.000000	103.476501	28.7842
8380.000000	102.677444	31.9594
8500.000000	101.790543	36.0532
8620.000000	100.807785	41.3661
8750.000000	99.689163	48.4583
8850.000000	98.823181	54.7665
9000.000000	97.561615	65.3868
9120.000000	96.611794	74.6825
9250.000000	95.658928	85.3580
9380.000000	94.790878	96.5001
9500.000000	94.063965	107.0881
9620.000000	93.404701	117.8954
9750.000000	92.761581	129.7933
9880.000000	92.186707	141.8428
10000.000000	91.711510	153.0742
10150.000000	91.185516	167.2480
10300.000000	90.728775	-178.4265
10440.000000	90.360893	-164.9011
10600.000000	90.009354	-149.2032
10750.000000	89.754402	-134.1635
10900.000000	89.592957	-118.6961
11060.000000	89.576790	-101.6183
11200.000000	89.772217	-86.1839
11380.000000	90.450676	-65.9876
11500.000000	91.212982	-52.7604
11720.000000	93.109146	-30.7262
11800.000000	93.874435	-23.8508
12060.000000	96.280251	-6.3546
12200.000000	97.457870	0.5748
12410.000000	99.147247	9.1324
12500.000000	99.882774	12.3270
12650.000000	101.154396	16.9154
12800.000000	102.459793	20.1027
13150.000000	105.065613	18.1769
13200.000000	105.314194	16.6437
13400.000000	105.832367	8.3165
13600.000000	105.531578	-0.5390
13800.000000	104.527611	-6.1614
14000.000000	103.100464	-7.0911
14300.000000	100.854317	-1.5308
14500.000000	99.639488	4.6792
14750.000000	98.655411	13.1192
15000.000000	98.289467	20.6987
15250.000000	98.440254	25.9803
15500.000000	98.901817	27.5908
15750.000000	99.374374	24.4888
16000.000000	99.543076	16.7917
16250.000000	99.197060	6.2423
16500.000000	98.299957	-4.6940
16750.000000	96.965492	-14.4301
17000.000000	95.360664	-22.7663
17250.000000	93.616203	-30.1390
17500.000000	91.814285	-36.9844
17750.000000	90.043320	-43.9680
18000.000000	88.402481	-52.2604
18250.000000	86.933487	-63.1622
18500.000000	85.598740	-77.7717
18750.000000	84.315277	-96.9813
19000.000000	82.983543	-121.3616
19250.000000	81.507965	-150.5931
19500.000000	79.835587	177.6228
19750.000000	78.066681	148.6947
