* Measurement data measured by REW V5.20
* Source: USB-C to 3.5mm Headphone Jack Adapter, USB-C to 3.5mm Headphone Jack Adapter, 0, volume: 0.138
* Format: 256k Log Swept Sine, 1 sweep at -12.0 dBFS with no timing reference
* Dated: Jun 23, 2021 8:23:50 PM
* REW Settings:
*  C-weighting compensation: Off
*  Target level: 75.0 dB
* Note: 
* Measurement: Dusk
* Smoothing: 1/12 octave
* Frequency Step: 1/48 octave
* Start Frequency: 20.300 Hz
*
* Freq(Hz)	SPL(dB)	Phase(degrees)
20.299999	100.981697	11.3404
20.600000	100.979675	11.1848
20.900000	100.974541	10.8066
21.200001	100.969818	10.3625
21.400000	100.967377	10.0471
21.799999	100.963707	9.3898
22.000000	100.962036	9.0554
22.400000	100.958046	8.3915
22.700001	100.954086	7.9135
23.000000	100.949493	7.4609
23.299999	100.944633	7.0350
23.600000	100.939835	6.6310
24.000000	100.933479	6.1130
24.299999	100.928307	5.7310
24.700001	100.920052	5.2232
25.000000	100.912567	4.8434
25.400000	100.900925	4.3416
25.799999	100.887894	3.8488
26.200001	100.873917	3.3670
26.500000	100.862968	3.0136
26.900000	100.848083	2.5547
27.200001	100.837135	2.2206
27.600000	100.823898	1.7876
28.000000	100.813210	1.3643
28.500000	100.803543	0.8367
29.000000	100.795090	0.3021
29.500000	100.783707	-0.2324
30.000000	100.766754	-0.7472
30.400000	100.749695	-1.1360
30.700001	100.735809	-1.4148
31.100000	100.717087	-1.7755
31.500000	100.699005	-2.1323
32.000000	100.677605	-2.5823
32.500000	100.657074	-3.0365
33.000000	100.636780	-3.4858
33.500000	100.616470	-3.9210
34.000000	100.596085	-4.3389
34.500000	100.575439	-4.7420
35.000000	100.554428	-5.1353
35.500000	100.532990	-5.5232
36.000000	100.511230	-5.9087
36.500000	100.489258	-6.2937
37.000000	100.467026	-6.6787
37.500000	100.444473	-7.0622
38.200001	100.412590	-7.5911
38.700001	100.389824	-7.9591
39.500000	100.353508	-8.5244
40.000000	100.330650	-8.8617
40.599998	100.302917	-9.2536
41.200001	100.274811	-9.6400
41.799999	100.246071	-10.0295
42.500000	100.211319	-10.4898
43.099998	100.180603	-10.8817
43.700001	100.149597	-11.2623
44.400002	100.113754	-11.6866
45.000000	100.083519	-12.0348
45.500000	100.058487	-12.3172
46.200001	100.023346	-12.7056
46.799999	99.992859	-13.0350
47.500000	99.956772	-13.4159
48.200001	99.920151	-13.7894
48.700001	99.893791	-14.0484
49.400002	99.857033	-14.3999
50.000000	99.825790	-14.6981
50.799999	99.783501	-15.1074
51.500000	99.744423	-15.4772
52.200001	99.703163	-15.8405
53.000000	99.654205	-16.2251
53.799999	99.604012	-16.5703
54.500000	99.560539	-16.8467
55.200001	99.520271	-17.1029
56.000000	99.481667	-17.3456
57.000000	99.449310	-17.4981
58.000000	99.432693	-17.5327
59.000000	99.409042	-17.7006
60.000000	99.354317	-18.1513
60.799999	99.291122	-18.6389
61.500000	99.233406	-19.0624
62.200001	99.181808	-19.4390
63.000000	99.132149	-19.8150
64.000000	99.076706	-20.2412
65.000000	99.021538	-20.6382
66.000000	98.966156	-21.0041
67.000000	98.910843	-21.3412
68.000000	98.854973	-21.6610
69.000000	98.799110	-21.9751
70.000000	98.744102	-22.2895
71.000000	98.688766	-22.6007
72.000000	98.631439	-22.9007
73.000000	98.572433	-23.1887
74.000000	98.512939	-23.4675
75.000000	98.454140	-23.7327
76.199997	98.386047	-24.0290
77.500000	98.314140	-24.3316
78.800003	98.240051	-24.6165
80.000000	98.168991	-24.8706
81.199997	98.098839	-25.1328
82.500000	98.027298	-25.4236
83.800003	97.958717	-25.7003
85.000000	97.894745	-25.9399
86.199997	97.829247	-26.1725
87.500000	97.757172	-26.4174
88.500000	97.701256	-26.5997
90.000000	97.616760	-26.8634
91.199997	97.548790	-27.0621
92.500000	97.474434	-27.2655
93.800003	97.398933	-27.4629
95.000000	97.328903	-27.6385
96.199997	97.259933	-27.8009
97.500000	97.187019	-27.9583
98.800003	97.114792	-28.1007
100.000000	97.047058	-28.2285
101.500000	96.960434	-28.3912
103.000000	96.873283	-28.5502
104.400002	96.792625	-28.6830
106.000000	96.701782	-28.8112
107.500000	96.617805	-28.9138
109.000000	96.534264	-29.0056
110.599998	96.445267	-29.0915
112.000000	96.367752	-29.1532
113.800003	96.269211	-29.2041
115.000000	96.204185	-29.2101
117.199997	96.086189	-29.1357
118.000000	96.043610	-29.0871
120.599998	95.905563	-29.0417
122.000000	95.831017	-29.1347
124.099998	95.719429	-29.2695
125.000000	95.671951	-29.2965
126.500000	95.593605	-29.3062
128.000000	95.516098	-29.2882
131.500000	95.337021	-29.1958
132.000000	95.311829	-29.1779
134.000000	95.212379	-29.0918
136.000000	95.113884	-28.9784
138.000000	95.014786	-28.8389
140.000000	94.915398	-28.6822
143.000000	94.766960	-28.4226
145.000000	94.669250	-28.2249
147.500000	94.549515	-27.9379
150.000000	94.433090	-27.5921
152.500000	94.322174	-27.1841
155.000000	94.222740	-26.7414
157.500000	94.139671	-26.2947
160.000000	94.069824	-25.8806
162.500000	94.005585	-25.5342
165.000000	93.940369	-25.2509
167.500000	93.870689	-24.9970
170.000000	93.796417	-24.7409
172.500000	93.718872	-24.4657
175.000000	93.639969	-24.1643
177.500000	93.561768	-23.8369
180.000000	93.485847	-23.4904
182.500000	93.412888	-23.1335
185.000000	93.342941	-22.7674
187.500000	93.275665	-22.3907
190.000000	93.210564	-22.0062
192.500000	93.147552	-21.6186
195.000000	93.086800	-21.2284
197.500000	93.028465	-20.8327
200.000000	92.972443	-20.4310
203.000000	92.908333	-19.9381
206.000000	92.848053	-19.4341
209.000000	92.791550	-18.9271
212.000000	92.738274	-18.4218
214.000000	92.704262	-18.0858
218.000000	92.639862	-17.4147
220.000000	92.609589	-17.0800
224.000000	92.553238	-16.4164
227.000000	92.514999	-15.9256
230.000000	92.480637	-15.4424
233.000000	92.450394	-14.9708
236.000000	92.423691	-14.5137
240.000000	92.389175	-13.9024
243.000000	92.360931	-13.4188
247.000000	92.323936	-12.7622
250.000000	92.299843	-12.2827
254.000000	92.272873	-11.6654
258.000000	92.250748	-11.0672
262.000000	92.232574	-10.4848
265.000000	92.221146	-10.0581
269.000000	92.208000	-9.5023
272.000000	92.199265	-9.0975
276.000000	92.189606	-8.5735
280.000000	92.183144	-8.0611
285.000000	92.179321	-7.4335
290.000000	92.178368	-6.8219
295.000000	92.179382	-6.2209
300.000000	92.181160	-5.6442
304.000000	92.181969	-5.2162
307.000000	92.182663	-4.9104
311.000000	92.184586	-4.5119
315.000000	92.188179	-4.1199
320.000000	92.194839	-3.6411
325.000000	92.203484	-3.1737
330.000000	92.213531	-2.7157
335.000000	92.224617	-2.2686
340.000000	92.236794	-1.8344
345.000000	92.250084	-1.4161
350.000000	92.264580	-1.0163
355.000000	92.280167	-0.6367
360.000000	92.296303	-0.2790
365.000000	92.312302	0.0571
370.000000	92.327774	0.3742
375.000000	92.342445	0.6765
382.000000	92.361465	1.0831
387.000000	92.373955	1.3636
395.000000	92.391647	1.7928
400.000000	92.401566	2.0516
406.000000	92.412903	2.3568
412.000000	92.423813	2.6578
418.000000	92.434120	2.9539
425.000000	92.445175	3.2903
431.000000	92.454163	3.5722
437.000000	92.462975	3.8494
444.000000	92.473122	4.1635
450.000000	92.481735	4.4246
455.000000	92.488831	4.6381
462.000000	92.498627	4.9321
468.000000	92.506989	5.1786
475.000000	92.516220	5.4600
482.000000	92.523743	5.7366
487.000000	92.527847	5.9318
494.000000	92.532669	6.2017
500.000000	92.536484	6.4303
508.000000	92.541222	6.7311
515.000000	92.544746	6.9904
522.000000	92.547333	7.2482
530.000000	92.549110	7.5440
538.000000	92.550278	7.8401
545.000000	92.551094	8.0963
552.000000	92.551491	8.3512
560.000000	92.551285	8.6445
570.000000	92.550278	9.0152
580.000000	92.548637	9.3875
590.000000	92.546669	9.7607
600.000000	92.544189	10.1369
608.000000	92.541519	10.4417
615.000000	92.538803	10.7111
622.000000	92.535995	10.9832
630.000000	92.532761	11.2977
640.000000	92.528664	11.6961
650.000000	92.524498	12.1003
660.000000	92.520287	12.5101
670.000000	92.515915	12.9256
680.000000	92.511452	13.3477
690.000000	92.507133	13.7776
700.000000	92.503159	14.2163
710.000000	92.499695	14.6638
720.000000	92.497017	15.1185
730.000000	92.495338	15.5794
740.000000	92.494728	16.0474
750.000000	92.495216	16.5233
762.000000	92.497375	17.1037
775.000000	92.501625	17.7414
788.000000	92.507950	18.3892
800.000000	92.516060	18.9976
812.000000	92.526886	19.6152
825.000000	92.541855	20.2934
838.000000	92.559761	20.9793
850.000000	92.578415	21.6170
862.000000	92.599678	22.2577
875.000000	92.626373	22.9536
885.000000	92.649658	23.4886
900.000000	92.689819	24.2899
912.000000	92.727005	24.9290
925.000000	92.771637	25.6160
938.000000	92.820114	26.2943
950.000000	92.868248	26.9105
962.000000	92.919724	27.5146
975.000000	92.979156	28.1531
988.000000	93.042244	28.7741
1000.000000	93.103539	29.3308
1015.000000	93.183876	30.0004
1030.000000	93.267853	30.6357
1044.000000	93.349220	31.1964
1060.000000	93.445206	31.7991
1075.000000	93.537453	32.3257
1090.000000	93.631378	32.8130
1106.000000	93.732697	33.2894
1120.000000	93.821442	33.6713
1138.000000	93.935211	34.1146
1150.000000	94.010712	34.3810
1172.000000	94.147118	34.8113
1180.000000	94.195717	34.9502
1206.000000	94.349792	35.3442
1220.000000	94.430145	35.5239
1241.000000	94.546204	35.7528
1250.000000	94.594086	35.8364
1265.000000	94.671402	35.9582
1280.000000	94.745514	36.0601
1315.000000	94.904663	36.2391
1320.000000	94.925743	36.2598
1340.000000	95.005920	36.3353
1360.000000	95.079605	36.4037
1380.000000	95.146942	36.4692
1400.000000	95.208206	36.5361
1430.000000	95.290367	36.6526
1450.000000	95.339439	36.7487
1475.000000	95.395401	36.8953
1500.000000	95.447136	37.0730
1525.000000	95.496368	37.2800
1550.000000	95.544128	37.5160
1575.000000	95.591042	37.7801
1600.000000	95.637711	38.0702
1625.000000	95.684883	38.3838
1650.000000	95.733192	38.7187
1675.000000	95.783134	39.0728
1700.000000	95.834991	39.4431
1725.000000	95.889038	39.8262
1750.000000	95.945442	40.2190
1775.000000	96.004379	40.6190
1800.000000	96.066139	41.0241
1825.000000	96.130997	41.4319
1850.000000	96.199013	41.8411
1875.000000	96.270134	42.2501
1900.000000	96.344284	42.6561
1925.000000	96.421402	43.0566
1950.000000	96.501541	43.4494
1975.000000	96.584724	43.8326
2000.000000	96.670929	44.2050
2030.000000	96.778259	44.6356
2060.000000	96.889648	45.0459
2090.000000	97.004868	45.4320
2120.000000	97.123772	45.7902
2140.000000	97.205017	46.0124
2180.000000	97.371895	46.4153
2200.000000	97.457413	46.5950
2240.000000	97.632202	46.9075
2270.000000	97.766136	47.0976
2300.000000	97.902069	47.2468
2330.000000	98.039658	47.3529
2360.000000	98.178513	47.4141
2400.000000	98.364761	47.4223
2430.000000	98.504501	47.3712
2470.000000	98.689713	47.2250
2500.000000	98.827087	47.0563
2540.000000	99.007057	46.7524
2580.000000	99.181984	46.3584
2620.000000	99.350334	45.8754
2650.000000	99.471344	45.4567
2690.000000	99.624451	44.8274
2720.000000	99.732292	44.3058
2760.000000	99.865753	43.5494
2800.000000	99.986359	42.7300
2850.000000	100.117531	41.6310
2900.000000	100.225479	40.4688
2950.000000	100.309212	39.2663
3000.000000	100.368271	38.0475
3040.000000	100.397934	37.0774
3070.000000	100.410141	36.3614
3110.000000	100.413528	35.4327
3150.000000	100.403046	34.5454
3200.000000	100.372368	33.5144
3250.000000	100.325729	32.5921
3300.000000	100.268478	31.7958
3350.000000	100.207336	31.1277
3400.000000	100.149017	30.5671
3450.000000	100.097618	30.0708
3500.000000	100.052551	29.5906
3550.000000	100.009193	29.0956
3600.000000	99.961647	28.5823
3650.000000	99.905502	28.0705
3700.000000	99.839058	27.5908
3750.000000	99.763535	27.1740
3820.000000	99.649612	26.7333
3870.000000	99.568748	26.5205
3950.000000	99.448799	26.3046
4000.000000	99.380104	26.2148
4060.000000	99.301758	26.1351
4120.000000	99.225876	26.0874
4180.000000	99.152039	26.0808
4250.000000	99.070282	26.1329
4310.000000	99.006241	26.2239
4370.000000	98.949265	26.3448
4440.000000	98.891823	26.5055
4500.000000	98.849274	26.6487
4550.000000	98.817780	26.7684
4620.000000	98.778908	26.9360
4680.000000	98.750168	27.0816
4750.000000	98.721992	27.2547
4820.000000	98.699600	27.4303
4870.000000	98.687027	27.5576
4940.000000	98.674248	27.7437
5000.000000	98.668716	27.9199
5080.000000	98.673492	28.1913
5150.000000	98.695831	28.4580
5220.000000	98.742485	28.7208
5300.000000	98.832169	28.9427
5380.000000	98.962723	28.9699
5450.000000	99.106606	28.7273
5520.000000	99.268219	28.1322
5600.000000	99.451950	26.9030
5700.000000	99.622177	24.4488
5800.000000	99.644119	21.1664
5900.000000	99.454887	17.6925
6000.000000	99.055069	14.8822
6080.000000	98.628181	13.5477
6150.000000	98.221565	13.1423
6220.000000	97.821442	13.3933
6300.000000	97.408173	14.3277
6400.000000	96.994492	16.1602
6500.000000	96.712265	18.3995
6600.000000	96.559845	20.7868
6700.000000	96.527695	23.1490
6800.000000	96.605881	25.3656
6900.000000	96.787148	27.3398
7000.000000	97.066803	28.9761
7100.000000	97.440712	30.1631
7200.000000	97.901779	30.7636
7300.000000	98.436630	30.6129
7400.000000	99.022568	29.5247
7500.000000	99.624695	27.3016
7620.000000	100.298309	22.8944
7750.000000	100.851044	15.8961
7880.000000	101.093933	7.0470
8000.000000	100.974243	-1.7986
8120.000000	100.524628	-10.1655
8250.000000	99.736137	-17.7139
8380.000000	98.750488	-23.2883
8500.000000	97.767273	-26.7913
8620.000000	96.785614	-29.0033
8750.000000	95.776489	-30.2794
8850.000000	95.060669	-30.6677
9000.000000	94.107826	-30.5925
9120.000000	93.458260	-30.1968
9250.000000	92.866959	-29.6549
9380.000000	92.383415	-29.1853
9500.000000	92.018509	-28.9557
9620.000000	91.714035	-29.0205
9750.000000	91.429062	-29.4945
9880.000000	91.164223	-30.4181
10000.000000	90.914307	-31.6486
10150.000000	90.565163	-33.5947
10300.000000	90.149849	-35.7982
10440.000000	89.690598	-37.8550
10600.000000	89.084229	-39.9278
10750.000000	88.455139	-41.3969
10900.000000	87.795906	-42.3045
11060.000000	87.095085	-42.6569
11200.000000	86.510818	-42.5183
11380.000000	85.829018	-41.8966
11500.000000	85.428192	-41.3130
11720.000000	84.813988	-40.1394
11800.000000	84.628853	-39.7337
12060.000000	84.156631	-38.7034
12200.000000	83.975861	-38.4197
12410.000000	83.785675	-38.4532
12500.000000	83.730202	-38.6522
12650.000000	83.668800	-39.2441
12800.000000	83.644089	-40.1735
13150.000000	83.725319	-43.7487
13200.000000	83.752731	-44.4313
13400.000000	83.901352	-47.6206
13600.000000	84.111832	-51.5649
13800.000000	84.387375	-56.2713
14000.000000	84.741859	-61.7377
14300.000000	85.474449	-71.5337
14500.000000	86.109222	-79.5134
14750.000000	86.993126	-91.8317
15000.000000	87.808716	-107.2510
15250.000000	88.370209	-125.4580
15500.000000	88.579498	-145.1783
15750.000000	88.468803	-164.8567
16000.000000	88.178085	176.4168
16250.000000	87.883987	158.5195
16500.000000	87.719879	140.5445
16750.000000	87.719864	121.2386
17000.000000	87.808090	99.3857
17250.000000	87.837616	74.1473
17500.000000	87.653320	45.3137
17750.000000	87.138390	13.3329
18000.000000	86.234665	-20.9141
18250.000000	84.950752	-56.5698
18500.000000	83.356033	-93.3051
18750.000000	81.552620	-131.4630
19000.000000	79.629532	-171.5897
19250.000000	77.622322	146.5945
19500.000000	75.529457	105.4919
19750.000000	73.446442	70.5659
