* Measurement data measured by REW V5.20.9
* Source: /Users/vitor/Documents/Audio/Targets/VitorMach LG - keypoints.txt
* Format: Comma/Tab/Space delimited data
* Dated: Dec 18, 2022 4:47:33 PM
* REW Settings:
*  C-weighting compensation: Off
*  Target level: 75.0 dB
* Note: Measurement imported from /Users/vitor/Documents/Audio/Targets/VitorMach LG - keypoints.txt Format: Comma/Tab/Space delimited data 12 values loaded, 10 Hz to 25,068 Hz log spaced
* Measurement: VitorMach LG - keypoints
* Smoothing: 1/1 octave
* Frequency Step: 96 ppo
* Start Frequency: 20.0 Hz
*
* Freq(Hz) SPL(dB)
20.000000 106.936
20.144928 106.929
20.290907 106.922
20.437943 106.916
20.586044 106.909
20.735220 106.902
20.885475 106.895
21.036819 106.888
21.189260 106.881
21.342806 106.874
21.497465 106.866
21.653244 106.859
21.810152 106.852
21.968197 106.844
22.127388 106.836
22.287733 106.829
22.449240 106.821
22.611916 106.813
22.775770 106.805
22.940813 106.797
23.107052 106.789
23.274494 106.781
23.443151 106.772
23.613029 106.764
23.784140 106.755
23.956490 106.747
24.130089 106.738
24.304945 106.730
24.481070 106.721
24.658470 106.712
24.837156 106.703
25.017136 106.694
25.198420 106.685
25.381018 106.676
25.564939 106.667
25.750193 106.658
25.936789 106.649
26.124737 106.639
26.314047 106.630
26.504730 106.621
26.696795 106.611
26.890251 106.601
27.085110 106.592
27.281380 106.582
27.479073 106.572
27.678198 106.562
27.878765 106.553
28.080786 106.543
28.284271 106.533
28.489231 106.523
28.695675 106.512
28.903616 106.502
29.113064 106.492
29.324030 106.482
29.536524 106.471
29.750557 106.461
29.966143 106.450
30.183290 106.440
30.402012 106.429
30.622318 106.419
30.844221 106.408
31.067732 106.397
31.292862 106.386
31.519623 106.376
31.748028 106.365
31.978086 106.354
32.209812 106.343
32.443218 106.332
32.678314 106.320
32.915115 106.309
33.153633 106.298
33.393879 106.287
33.635864 106.275
33.879604 106.264
34.125111 106.252
34.372395 106.241
34.621471 106.229
34.872353 106.218
35.125053 106.206
35.379585 106.194
35.635960 106.183
35.894192 106.171
36.154297 106.159
36.416286 106.147
36.680176 106.135
36.945976 106.123
37.213703 106.111
37.483368 106.099
37.754990 106.086
38.028580 106.074
38.304150 106.062
38.581718 106.049
38.861298 106.037
39.142902 106.025
39.426548 106.012
39.712250 105.999
40.000023 105.987
40.289879 105.974
40.581837 105.961
40.875908 105.948
41.172112 105.936
41.470463 105.923
41.770973 105.910
42.073662 105.897
42.378544 105.883
42.685635 105.870
42.994953 105.857
43.306511 105.844
43.620327 105.830
43.936417 105.817
44.254799 105.803
44.575489 105.790
44.898502 105.776
45.223854 105.763
45.551563 105.749
45.881649 105.735
46.214127 105.721
46.549015 105.707
46.886330 105.693
47.226086 105.679
47.568306 105.665
47.913006 105.651
48.260204 105.637
48.609917 105.623
48.962166 105.608
49.316967 105.594
49.674339 105.579
50.034302 105.565
50.396870 105.550
50.762066 105.535
51.129910 105.521
51.500420 105.506
51.873611 105.491
52.249508 105.476
52.628128 105.461
53.009495 105.445
53.393623 105.430
53.780537 105.415
54.170254 105.399
54.562794 105.384
54.958179 105.368
55.356430 105.353
55.757565 105.337
56.161606 105.321
56.568577 105.305
56.978497 105.289
57.391388 105.273
57.807270 105.257
58.226166 105.240
58.648098 105.224
59.073086 105.208
59.501152 105.191
59.932323 105.174
60.366619 105.157
60.804062 105.140
61.244675 105.123
61.688480 105.106
62.135502 105.089
62.585762 105.072
63.039284 105.054
63.496094 105.037
63.956211 105.019
64.419662 105.001
64.886475 104.983
65.356667 104.965
65.830269 104.947
66.307304 104.928
66.787796 104.910
67.271767 104.891
67.759247 104.872
68.250259 104.853
68.744827 104.834
69.242981 104.815
69.744743 104.795
70.250145 104.776
70.759209 104.756
71.271957 104.736
71.788422 104.716
72.308632 104.696
72.832611 104.675
73.360390 104.655
73.891991 104.634
74.427444 104.613
74.966774 104.592
75.510017 104.571
76.057198 104.549
76.608337 104.527
77.163475 104.506
77.722633 104.484
78.285843 104.461
78.853134 104.439
79.424538 104.416
80.000084 104.393
80.579796 104.370
81.163712 104.347
81.751854 104.323
82.344261 104.300
82.940964 104.276
83.541985 104.252
84.147362 104.227
84.757126 104.203
85.371307 104.178
85.989944 104.153
86.613060 104.128
87.240692 104.102
87.872871 104.077
88.509636 104.051
89.151016 104.025
89.797043 103.999
90.447746 103.972
91.103165 103.946
91.763336 103.919
92.428291 103.892
93.098068 103.865
93.772697 103.837
94.452209 103.809
95.136650 103.782
95.826050 103.753
96.520447 103.725
97.219872 103.697
97.924370 103.668
98.633972 103.639
99.348717 103.610
100.068642 103.581
100.793777 103.552
101.524170 103.522
102.259857 103.493
103.000877 103.463
103.747261 103.433
104.499054 103.403
105.256294 103.372
106.019028 103.342
106.787285 103.311
107.561111 103.280
108.340546 103.249
109.125626 103.218
109.916397 103.187
110.712898 103.156
111.515167 103.124
112.323250 103.093
113.137192 103.061
113.957031 103.030
114.782814 102.998
115.614578 102.966
116.452370 102.934
117.296234 102.902
118.146210 102.870
119.002342 102.837
119.864685 102.805
120.733276 102.773
121.608162 102.740
122.489388 102.708
123.376999 102.675
124.271042 102.643
125.171562 102.610
126.078606 102.578
126.992226 102.545
127.912460 102.513
128.839371 102.480
129.772995 102.447
130.713379 102.415
131.660583 102.382
132.614655 102.350
133.575638 102.317
134.543579 102.285
135.518539 102.253
136.500565 102.221
137.489700 102.188
138.486008 102.156
139.489532 102.124
140.500336 102.092
141.518463 102.061
142.543961 102.029
143.576889 101.997
144.617310 101.966
145.665268 101.935
146.720825 101.903
147.784027 101.872
148.854935 101.842
149.933594 101.811
151.020081 101.781
152.114441 101.750
153.216721 101.720
154.326996 101.690
155.445312 101.661
156.571732 101.631
157.706314 101.602
158.849121 101.573
160.000214 101.544
161.159637 101.516
162.327469 101.487
163.503754 101.459
164.688568 101.432
165.881973 101.404
167.084015 101.377
168.294769 101.350
169.514297 101.323
170.742661 101.297
171.979935 101.271
173.226166 101.245
174.481430 101.220
175.745789 101.195
177.019318 101.170
178.302078 101.146
179.594131 101.122
180.895538 101.098
182.206375 101.074
183.526718 101.051
184.856628 101.028
186.196182 101.006
187.545441 100.984
188.904465 100.962
190.273346 100.940
191.652145 100.919
193.040939 100.899
194.439789 100.878
195.848785 100.858
197.267990 100.838
198.697479 100.819
200.137329 100.800
201.587601 100.781
203.048386 100.762
204.519760 100.744
206.001801 100.726
207.494568 100.709
208.998154 100.692
210.512634 100.675
212.038101 100.658
213.574615 100.642
215.122269 100.626
216.681137 100.611
218.251297 100.595
219.832840 100.580
221.425842 100.566
223.030380 100.551
224.646545 100.537
226.274429 100.523
227.914108 100.510
229.565674 100.496
231.229202 100.483
232.904785 100.470
234.592514 100.458
236.292465 100.446
238.004730 100.434
239.729416 100.422
241.466599 100.410
243.216370 100.399
244.978821 100.388
246.754044 100.377
248.542130 100.367
250.343170 100.356
252.157257 100.346
253.984497 100.336
255.824966 100.326
257.678772 100.317
259.546021 100.308
261.426788 100.298
263.321198 100.289
265.229340 100.281
267.151306 100.272
269.087189 100.264
271.037109 100.256
273.001160 100.248
274.979431 100.240
276.972046 100.232
278.979095 100.225
281.000702 100.218
283.036957 100.211
285.087952 100.204
287.153809 100.197
289.234650 100.191
291.330566 100.184
293.441681 100.178
295.568085 100.172
297.709900 100.166
299.867218 100.160
302.040192 100.155
304.228912 100.149
306.433472 100.144
308.654022 100.139
310.890656 100.134
313.143494 100.129
315.412659 100.124
317.698273 100.120
320.000458 100.115
322.319305 100.111
324.654968 100.107
327.007538 100.103
329.377167 100.099
331.763977 100.096
334.168091 100.092
336.589600 100.089
339.028656 100.085
341.485413 100.082
343.959961 100.079
346.452423 100.077
348.962952 100.074
351.491669 100.072
354.038727 100.069
356.604248 100.067
359.188354 100.065
361.791168 100.063
364.412842 100.061
367.053528 100.060
369.713348 100.058
372.392456 100.057
375.090973 100.056
377.809052 100.055
380.546814 100.054
383.304413 100.053
386.082001 100.053
388.879700 100.052
391.697693 100.052
394.536102 100.052
397.395081 100.052
400.274780 100.052
403.175323 100.053
406.096893 100.053
409.039642 100.054
412.003723 100.055
414.989258 100.056
417.996429 100.057
421.025391 100.059
424.076324 100.060
427.149353 100.062
430.244659 100.064
433.362396 100.066
436.502716 100.068
439.665802 100.070
442.851807 100.073
446.060883 100.076
449.293213 100.079
452.548981 100.082
455.828339 100.085
459.131470 100.089
462.458527 100.093
465.809692 100.097
469.185150 100.101
472.585052 100.105
476.009613 100.110
479.458984 100.114
482.933350 100.119
486.432892 100.124
489.957794 100.130
493.508240 100.135
497.084412 100.141
500.686493 100.147
504.314667 100.153
507.969147 100.160
511.650085 100.166
515.357727 100.173
519.092224 100.180
522.853760 100.187
526.642578 100.195
530.458862 100.203
534.302795 100.211
538.174561 100.219
542.074402 100.227
546.002502 100.236
549.959045 100.245
553.944275 100.254
557.958374 100.263
562.001587 100.273
566.074097 100.283
570.176086 100.293
574.307800 100.303
578.469482 100.314
582.661316 100.325
586.883545 100.336
591.136353 100.347
595.419983 100.359
599.734619 100.371
604.080566 100.383
608.458008 100.395
612.867126 100.408
617.308228 100.421
621.781494 100.434
626.287170 100.447
630.825500 100.461
635.396729 100.475
640.001099 100.489
644.638794 100.504
649.310120 100.519
654.015259 100.534
658.754517 100.549
663.528137 100.565
668.336365 100.581
673.179382 100.597
678.057495 100.613
682.971008 100.630
687.920105 100.647
692.905029 100.665
697.926086 100.682
702.983521 100.700
708.077637 100.719
713.208679 100.737
718.376892 100.756
723.582520 100.775
728.825867 100.795
734.107239 100.815
739.426880 100.835
744.785095 100.855
750.182129 100.876
755.618286 100.897
761.093811 100.918
766.609009 100.940
772.164185 100.962
777.759583 100.984
783.395569 101.007
789.072388 101.030
794.790344 101.053
800.549744 101.077
806.350830 101.101
812.193970 101.125
818.079468 101.150
824.007629 101.175
829.978699 101.200
835.993042 101.225
842.050964 101.251
848.152832 101.278
854.298889 101.304
860.489502 101.331
866.724976 101.358
873.005615 101.386
879.331787 101.414
885.703796 101.442
892.121948 101.471
898.586609 101.500
905.098145 101.529
911.656860 101.558
918.263123 101.588
924.917236 101.618
931.619568 101.649
938.370483 101.680
945.170288 101.711
952.019409 101.742
958.918152 101.774
965.866882 101.806
972.865967 101.838
979.915771 101.870
987.016663 101.903
994.169006 101.936
1001.373169 101.969
1008.629517 102.003
1015.938477 102.036
1023.300415 102.070
1030.715698 102.104
1038.184692 102.139
1045.707764 102.173
1053.285400 102.208
1060.917969 102.243
1068.605835 102.278
1076.349365 102.313
1084.149048 102.349
1092.005249 102.384
1099.918335 102.420
1107.888794 102.456
1115.916992 102.492
1124.003418 102.528
1132.148438 102.564
1140.352417 102.600
1148.615845 102.636
1156.939209 102.672
1165.322876 102.709
1173.767334 102.745
1182.272949 102.781
1190.840210 102.817
1199.469482 102.854
1208.161377 102.890
1216.916260 102.926
1225.734497 102.963
1234.616699 102.999
1243.563232 103.035
1252.574585 103.071
1261.651245 103.107
1270.793701 103.143
1280.002441 103.178
1289.277832 103.214
1298.620483 103.250
1308.030762 103.285
1317.509277 103.320
1327.056519 103.355
1336.672974 103.390
1346.359009 103.425
1356.115234 103.460
1365.942261 103.494
1375.840454 103.528
1385.810303 103.562
1395.852417 103.596
1405.967285 103.630
1416.155518 103.663
1426.417603 103.696
1436.754028 103.729
1447.165283 103.762
1457.652100 103.795
1468.214844 103.827
1478.854126 103.859
1489.570557 103.891
1500.364624 103.922
1511.236938 103.954
1522.187988 103.985
1533.218384 104.016
1544.328735 104.046
1555.519531 104.076
1566.791504 104.106
1578.145142 104.136
1589.581055 104.166
1601.099854 104.195
1612.702026 104.224
1624.388306 104.253
1636.159302 104.281
1648.015625 104.309
1659.957886 104.337
1671.986572 104.365
1684.102417 104.392
1696.306152 104.419
1708.598267 104.446
1720.979492 104.473
1733.450439 104.499
1746.011719 104.525
1758.664062 104.551
1771.408081 104.576
1784.244385 104.602
1797.173706 104.627
1810.196777 104.651
1823.314209 104.676
1836.526733 104.700
1849.834961 104.724
1863.239624 104.748
1876.741455 104.771
1890.341064 104.794
1904.039307 104.817
1917.836792 104.840
1931.734253 104.862
1945.732422 104.884
1959.832031 104.906
1974.033813 104.927
1988.338501 104.949
2002.746826 104.970
2017.259521 104.991
2031.877441 105.011
2046.601318 105.031
2061.431885 105.051
2076.369873 105.071
2091.416016 105.090
2106.571289 105.110
2121.836426 105.129
2137.212158 105.147
2152.699219 105.166
2168.298584 105.184
2184.010986 105.202
2199.837158 105.219
2215.778076 105.237
2231.834473 105.254
2248.007324 105.271
2264.297363 105.287
2280.705322 105.303
2297.232178 105.320
2313.878906 105.335
2330.646240 105.351
2347.535156 105.366
2364.546387 105.381
2381.680908 105.395
2398.939453 105.410
2416.323242 105.424
2433.833008 105.438
2451.469482 105.451
2469.233887 105.465
2487.126953 105.478
2505.149658 105.490
2523.302979 105.503
2541.587891 105.515
2560.005371 105.527
2578.556152 105.538
2597.241455 105.549
2616.062256 105.560
2635.019287 105.571
2654.113770 105.581
2673.346680 105.591
2692.718750 105.601
2712.231201 105.610
2731.885254 105.620
2751.681641 105.628
2771.621582 105.637
2791.705811 105.645
2811.935547 105.653
2832.312012 105.661
2852.836182 105.668
2873.509033 105.675
2894.331543 105.682
2915.305176 105.688
2936.430664 105.694
2957.709229 105.700
2979.142090 105.705
3000.730225 105.710
3022.474854 105.715
3044.376953 105.719
3066.437744 105.723
3088.658447 105.727
3111.040039 105.730
3133.583984 105.733
3156.291260 105.736
3179.163086 105.739
3202.200684 105.741
3225.405029 105.742
3248.777588 105.744
3272.319580 105.745
3296.032227 105.745
3319.916748 105.746
3343.974121 105.745
3368.206055 105.745
3392.613525 105.744
3417.197754 105.743
3441.960205 105.742
3466.902100 105.740
3492.024658 105.738
3517.329346 105.735
3542.817383 105.732
3568.489990 105.729
3594.348633 105.725
3620.394775 105.721
3646.629639 105.717
3673.054688 105.712
3699.671143 105.707
3726.480469 105.702
3753.484131 105.696
3780.683350 105.690
3808.079834 105.683
3835.674805 105.676
3863.469727 105.669
3891.466064 105.661
3919.665283 105.653
3948.068848 105.645
3976.678223 105.636
4005.494873 105.627
4034.520264 105.617
4063.756104 105.608
4093.203857 105.597
4122.864746 105.587
4152.740723 105.576
4182.833008 105.564
4213.143555 105.553
4243.673828 105.541
4274.425293 105.528
4305.399414 105.515
4336.598145 105.502
4368.022949 105.489
4399.675293 105.475
4431.557129 105.460
4463.669922 105.446
4496.015625 105.431
4528.595703 105.415
4561.411621 105.400
4594.465332 105.384
4627.758789 105.367
4661.293457 105.350
4695.071289 105.333
4729.093750 105.315
4763.362793 105.297
4797.879883 105.279
4832.647461 105.260
4867.666992 105.241
4902.939941 105.222
4938.468750 105.202
4974.254883 105.182
5010.300293 105.161
5046.606934 105.141
5083.176758 105.119
5120.011719 105.098
5157.113281 105.076
5194.483887 105.053
5232.125488 105.031
5270.039551 105.007
5308.228516 104.984
5346.694336 104.960
5385.438477 104.936
5424.463379 104.911
5463.771484 104.886
5503.364258 104.861
5543.244141 104.835
5583.412598 104.809
5623.872070 104.783
5664.625000 104.756
5705.673340 104.729
5747.019043 104.701
5788.664551 104.674
5830.611816 104.645
5872.862793 104.617
5915.419922 104.588
5958.285645 104.558
6001.461914 104.528
6044.951172 104.498
6088.755371 104.468
6132.876953 104.437
6177.318359 104.405
6222.081543 104.374
6267.169434 104.342
6312.583984 104.309
6358.327637 104.276
6404.402832 104.243
6450.812012 104.210
6497.557129 104.176
6544.641113 104.141
6592.066406 104.106
6639.835449 104.071
6687.950195 104.036
6736.414062 104.000
6785.229004 103.964
6834.397461 103.927
6883.922363 103.890
6933.806152 103.852
6984.051270 103.814
7034.660645 103.776
7085.636719 103.737
7136.981934 103.698
7188.699219 103.659
7240.791504 103.619
7293.261230 103.579
7346.111328 103.538
7399.344238 103.497
7452.962891 103.456
7506.970215 103.414
7561.368652 103.372
7616.161621 103.329
7671.351562 103.286
7726.941406 103.243
7782.934082 103.199
7839.332520 103.154
7896.139648 103.110
7953.358398 103.065
8010.991699 103.019
8069.042480 102.973
8127.514160 102.927
8186.409668 102.881
8245.731445 102.834
8305.483398 102.786
8365.667969 102.738
8426.289062 102.690
8487.349609 102.641
8548.852539 102.592
8610.800781 102.543
8673.198242 102.493
8736.047852 102.443
8799.352539 102.393
8863.116211 102.342
8927.341797 102.290
8992.033203 102.239
9057.193359 102.187
9122.825195 102.134
9188.932617 102.081
9255.519531 102.028
9322.588867 101.975
9390.144531 101.921
9458.189453 101.867
9526.727539 101.812
9595.761719 101.757
9665.296875 101.702
9735.335938 101.646
9805.881836 101.590
9876.939453 101.534
9948.511719 101.477
10020.602539 101.420
10093.215820 101.363
10166.355469 101.305
10240.025391 101.247
10314.228516 101.189
10388.969727 101.130
10464.252930 101.071
10540.081055 101.012
10616.458984 100.953
10693.390625 100.893
10770.878906 100.833
10848.928711 100.772
10927.544922 100.712
11006.730469 100.651
11086.490234 100.589
11166.827148 100.528
11247.746094 100.466
11329.251953 100.404
11411.348633 100.342
11494.040039 100.279
11577.331055 100.216
11661.225586 100.153
11745.727539 100.090
11830.841797 100.026
11916.573242 99.962
12002.925781 99.898
12089.904297 99.834
12177.512695 99.769
12265.755859 99.704
12354.638672 99.639
12444.165039 99.574
12534.340820 99.509
12625.169922 99.443
12716.657227 99.377
12808.807617 99.312
12901.625977 99.245
12995.116211 99.179
13089.284180 99.113
13184.134766 99.046
13279.672852 98.979
13375.903320 98.912
13472.831055 98.845
13570.460938 98.778
13668.797852 98.710
13767.847656 98.643
13867.615234 98.575
13968.105469 98.507
14069.324219 98.440
14171.276367 98.372
14273.966797 98.304
14377.401367 98.236
14481.585938 98.167
14586.525391 98.099
14692.225586 98.031
14798.691406 97.963
14905.928711 97.895
15013.943359 97.826
15122.740234 97.758
15232.326172 97.690
15342.706055 97.621
15453.885742 97.553
15565.871094 97.485
15678.667969 97.417
15792.282227 97.349
15906.719727 97.281
16021.986328 97.214
16138.087891 97.146
16255.031250 97.079
16372.822266 97.011
16491.466797 96.944
16610.970703 96.878
16731.339844 96.811
16852.582031 96.745
16974.703125 96.679
17097.708984 96.613
17221.605469 96.548
17346.400391 96.483
17472.099609 96.418
17598.708984 96.354
17726.236328 96.290
17854.687500 96.227
17984.070312 96.164
18114.390625 96.102
18245.654297 96.041
18377.869141 95.980
18511.042969 95.919
18645.181641 95.860
18780.292969 95.801
18916.382812 95.742
19053.458984 95.685
19191.527344 95.628
19330.597656 95.572
19470.675781 95.517
19611.767578 95.463
19753.882812 95.410
19897.027344 95.358
20041.208984 95.307
